ImageFile,fakeiq_trials.thisRepN,fakeiq_trials.thisTrialN,fakeiq_trials.thisN,fakeiq_trials.thisIndex,intro_text.started,intro_text.stopped,space_instr_intro.started,space_instr_intro.stopped,intro_key_resp.keys,intro_key_resp.rt,intro_key_resp.started,intro_key_resp.stopped,itemIndex,questions,ratings,rt,space_instr_4.started,space_instr_4.stopped,relationship_key_resp.keys,relationship_key_resp.rt,relationship_key_resp.started,relationship_key_resp.stopped,relationship_instr.started,relationship_instr.stopped,instr_fakeiq.started,instr_fakeiq.stopped,instr_fakeiq_key_resp.keys,instr_fakeiq_key_resp.rt,instr_fakeiq_key_resp.started,instr_fakeiq_key_resp.stopped,image_raven.started,image_raven.stopped,key_resp.keys,key_resp.rt,key_resp.started,key_resp.stopped,instr_premfq.started,instr_premfq.stopped,instr_premfq_key_resp.keys,instr_premfq_key_resp.rt,instr_premfq_key_resp.started,instr_premfq_key_resp.stopped,mfq1_key_resp.keys,mfq1_key_resp.rt,mfq1_key_resp.started,mfq1_key_resp.stopped,space_instr.started,space_instr.stopped,mfq1_instr.started,mfq1_instr.stopped,scale_instr_mfq1.started,scale_instr_mfq1.stopped,mfq2_key_resp.keys,mfq2_key_resp.rt,mfq2_key_resp.started,mfq2_key_resp.stopped,space_instr_2.started,space_instr_2.stopped,scale_instr_mfq1_2.started,scale_instr_mfq1_2.stopped,mfq1_instr_2.started,mfq1_instr_2.stopped,condition,manipulation_text.started,manipulation_text.stopped,key_resp_2.keys,key_resp_2.rt,key_resp_2.started,key_resp_2.stopped,demo_key_resp.keys,demo_key_resp.rt,demo_key_resp.started,demo_key_resp.stopped,space_instr_3.started,space_instr_3.stopped,debriefing_text.started,debriefing_text.stopped,debriefing_key_resp.keys,debriefing_key_resp.rt,debriefing_key_resp.started,debriefing_key_resp.stopped,participant,session,date,expName,psychopyVersion,frameRate,
,,,,,13.450888499850407,None,13.450888499850407,None,space,1.8476001999806613,13.450888499850407,None,,,,,,,,,,,,,,,,,,,,,,,,,,,,,,,,,,,,,,,,,,,,,,,,,,,,,,,,,,,,,,,,,,,,,,1234,001,2020_May_10_2045,macbeth,2020.1.2,60.06907940788712,
,,,,,,,,,,,,,1,Czy ma Pani/Pan ukończone 18 lat?,None,None,,,,,,,,,,,,,,,,,,,,,,,,,,,,,,,,,,,,,,,,,,,,,,,,,,,,,,,,,,,,,,,,,,1234,001,2020_May_10_2045,macbeth,2020.1.2,60.06907940788712,
,,,,,,,,,,,,,2,Czy jest Pani/Pan aktualnie w związku?,None,None,,,,,,,,,,,,,,,,,,,,,,,,,,,,,,,,,,,,,,,,,,,,,,,,,,,,,,,,,,,,,,,,,,1234,001,2020_May_10_2045,macbeth,2020.1.2,60.06907940788712,
,,,,,,,,,,,,,3,Czy jest Pani/Pan w związku małżeńskim?,None,None,,,,,,,,,,,,,,,,,,,,,,,,,,,,,,,,,,,,,,,,,,,,,,,,,,,,,,,,,,,,,,,,,,1234,001,2020_May_10_2045,macbeth,2020.1.2,60.06907940788712,
,,,,,,,,,,,,,4,Kto jest dla Pani/Pana najbliższą osobą?,None,None,,,,,,,,,,,,,,,,,,,,,,,,,,,,,,,,,,,,,,,,,,,,,,,,,,,,,,,,,,,,,,,,,,1234,001,2020_May_10_2045,macbeth,2020.1.2,60.06907940788712,
,,,,,,,,,,,,,5,Czy ma Pani/Pan tematy tabu ze swoją najbliższą osobą?,None,None,,,,,,,,,,,,,,,,,,,,,,,,,,,,,,,,,,,,,,,,,,,,,,,,,,,,,,,,,,,,,,,,,,1234,001,2020_May_10_2045,macbeth,2020.1.2,60.06907940788712,
,,,,,,,,,,,,,6,"W skali od 1 do 7 (1 - zupełnie niesatysfakcjonująca; 7 - zupełnie satysfakcjonująca), prosimy powiedzieć, jak bardzo satysfakcjonująca jest Pani/Pana relacja z najbliższą osobą",None,None,,,,,,,,,,,,,,,,,,,,,,,,,,,,,,,,,,,,,,,,,,,,,,,,,,,,,,,,,,,,,,,,,,1234,001,2020_May_10_2045,macbeth,2020.1.2,60.06907940788712,
,,,,,,,,,,,,,7,Jak często uprawia Pani/Pan seks?,None,None,,,,,,,,,,,,,,,,,,,,,,,,,,,,,,,,,,,,,,,,,,,,,,,,,,,,,,,,,,,,,,,,,,1234,001,2020_May_10_2045,macbeth,2020.1.2,60.06907940788712,
,,,,,,,,,,,,,8,"W skali od 1 do 7 (1 - zupełnie nieswobodnie; 7 - bardzo swobodnie) prosimy o udzielenie odpowiedzi, jak bardzo swobodnie czuje się Pani/Pan przy najbliższej dla siebie osobie",None,None,,,,,,,,,,,,,,,,,,,,,,,,,,,,,,,,,,,,,,,,,,,,,,,,,,,,,,,,,,,,,,,,,,1234,001,2020_May_10_2045,macbeth,2020.1.2,60.06907940788712,
,,,,,,,,,,,,,,,,,15.36317059979774,None,space,0.7800952999386936,15.36317059979774,None,,,,,,,,,,,,,,,,,,,,,,,,,,,,,,,,,,,,,,,,,,,,,,,,,,,,,,,,,,,,1234,001,2020_May_10_2045,macbeth,2020.1.2,60.06907940788712,
,,,,,,,,,,,,,,,,,,,,,,,15.36317059979774,None,16.164691499900073,None,space,2.4972573001869023,16.164691499900073,None,,,,,,,,,,,,,,,,,,,,,,,,,,,,,,,,,,,,,,,,,,,,,,,,,,,,1234,001,2020_May_10_2045,macbeth,2020.1.2,60.06907940788712,
raven/raven2.png,0,0,0,1,,,,,,,,,,,,,,,,,,,,,,,,,,,18.71619109995663,None,['7'],[4.916264399886131],18.71619109995663,None,,,,,,,,,,,,,,,,,,,,,,,,,,,,,,,,,,,,,,,,,,,,,,1234,001,2020_May_10_2045,macbeth,2020.1.2,60.06907940788712,
raven/raven1.png,0,1,1,0,,,,,,,,,,,,,,,,,,,,,,,,,,,23.661441099829972,None,['7'],[0.9695655000396073],23.661441099829972,None,,,,,,,,,,,,,,,,,,,,,,,,,,,,,,,,,,,,,,,,,,,,,,1234,001,2020_May_10_2045,macbeth,2020.1.2,60.06907940788712,
raven/raven3.png,0,2,2,2,,,,,,,,,,,,,,,,,,,,,,,,,,,24.67239819979295,None,['7'],[0.45612380001693964],24.67239819979295,None,,,,,,,,,,,,,,,,,,,,,,,,,,,,,,,,,,,,,,,,,,,,,,1234,001,2020_May_10_2045,macbeth,2020.1.2,60.06907940788712,
,,,,,,,,,,,,,,,,,,,,,,,,,,,,,,,,,,,,,25.157170000020415,None,space,0.9793596998788416,25.157170000020415,None,,,,,,,,,,,,,,,,,,,,,,,,,,,,,,,,,,,,,,,,1234,001,2020_May_10_2045,macbeth,2020.1.2,60.06907940788712,
,,,,,,,,,,,,,1,1) czy ktoś ucierpiał emocjonalnie;,None,None,,,,,,,,,,,,,,,,,,,,,,,,,,,,,,,,,,,,,,,,,,,,,,,,,,,,,,,,,,,,,,,,,,1234,001,2020_May_10_2045,macbeth,2020.1.2,60.06907940788712,
,,,,,,,,,,,,,2,2) czy ktoś był traktowany inaczej niż inni;,None,None,,,,,,,,,,,,,,,,,,,,,,,,,,,,,,,,,,,,,,,,,,,,,,,,,,,,,,,,,,,,,,,,,,1234,001,2020_May_10_2045,macbeth,2020.1.2,60.06907940788712,
,,,,,,,,,,,,,3,3) czy czyjeś działania były przejawem miłości dla ojczyzny;,None,None,,,,,,,,,,,,,,,,,,,,,,,,,,,,,,,,,,,,,,,,,,,,,,,,,,,,,,,,,,,,,,,,,,1234,001,2020_May_10_2045,macbeth,2020.1.2,60.06907940788712,
,,,,,,,,,,,,,4,4) czy ktoś okazał brak szacunku dla władzy;,None,None,,,,,,,,,,,,,,,,,,,,,,,,,,,,,,,,,,,,,,,,,,,,,,,,,,,,,,,,,,,,,,,,,,1234,001,2020_May_10_2045,macbeth,2020.1.2,60.06907940788712,
,,,,,,,,,,,,,5,5) czy ktoś pogwałcił zasady czystości i przyzwoitości;,None,None,,,,,,,,,,,,,,,,,,,,,,,,,,,,,,,,,,,,,,,,,,,,,,,,,,,,,,,,,,,,,,,,,,1234,001,2020_May_10_2045,macbeth,2020.1.2,60.06907940788712,
,,,,,,,,,,,,,6,6) czy ktoś troszczył się o kogoś słabego lub bezbronnego;,None,None,,,,,,,,,,,,,,,,,,,,,,,,,,,,,,,,,,,,,,,,,,,,,,,,,,,,,,,,,,,,,,,,,,1234,001,2020_May_10_2045,macbeth,2020.1.2,60.06907940788712,
,,,,,,,,,,,,,7,7) czy ktoś zachował się nieuczciwie;,None,None,,,,,,,,,,,,,,,,,,,,,,,,,,,,,,,,,,,,,,,,,,,,,,,,,,,,,,,,,,,,,,,,,,1234,001,2020_May_10_2045,macbeth,2020.1.2,60.06907940788712,
,,,,,,,,,,,,,8,"8) czy ktoś zrobił coś, aby zdradzić własną grupę;",None,None,,,,,,,,,,,,,,,,,,,,,,,,,,,,,,,,,,,,,,,,,,,,,,,,,,,,,,,,,,,,,,,,,,1234,001,2020_May_10_2045,macbeth,2020.1.2,60.06907940788712,
,,,,,,,,,,,,,9,9) czy ktoś postępował zgodnie z tradycją;,None,None,,,,,,,,,,,,,,,,,,,,,,,,,,,,,,,,,,,,,,,,,,,,,,,,,,,,,,,,,,,,,,,,,,1234,001,2020_May_10_2045,macbeth,2020.1.2,60.06907940788712,
,,,,,,,,,,,,,10,10) czy ktoś zrobił coś obrzydliwego;,None,None,,,,,,,,,,,,,,,,,,,,,,,,,,,,,,,,,,,,,,,,,,,,,,,,,,,,,,,,,,,,,,,,,,1234,001,2020_May_10_2045,macbeth,2020.1.2,60.06907940788712,
,,,,,,,,,,,,,11,11) czy ktoś zachował się okrutnie;,None,None,,,,,,,,,,,,,,,,,,,,,,,,,,,,,,,,,,,,,,,,,,,,,,,,,,,,,,,,,,,,,,,,,,1234,001,2020_May_10_2045,macbeth,2020.1.2,60.06907940788712,
,,,,,,,,,,,,,12,12) czy komuś odmówiono jego/jej praw;,None,None,,,,,,,,,,,,,,,,,,,,,,,,,,,,,,,,,,,,,,,,,,,,,,,,,,,,,,,,,,,,,,,,,,1234,001,2020_May_10_2045,macbeth,2020.1.2,60.06907940788712,
,,,,,,,,,,,,,13,13) czy ktoś okazał brak lojalności wobec swojej grupy;,None,None,,,,,,,,,,,,,,,,,,,,,,,,,,,,,,,,,,,,,,,,,,,,,,,,,,,,,,,,,,,,,,,,,,1234,001,2020_May_10_2045,macbeth,2020.1.2,60.06907940788712,
,,,,,,,,,,,,,14,14) czy czyjeś działania burzą ustalony porządek życia społecznego;,None,None,,,,,,,,,,,,,,,,,,,,,,,,,,,,,,,,,,,,,,,,,,,,,,,,,,,,,,,,,,,,,,,,,,1234,001,2020_May_10_2045,macbeth,2020.1.2,60.06907940788712,
,,,,,,,,,,,,,15,"15) czy ktoś postępował tak, aby nie obrazić Boga;",None,None,,,,,,,,,,,,,,,,,,,,,,,,,,,,,,,,,,,,,,,,,,,,,,,,,,,,,,,,,,,,,,,,,,1234,001,2020_May_10_2045,macbeth,2020.1.2,60.06907940788712,
,,,,,,,,,,,,,,,,,,,,,,,,,,,,,,,,,,,,,,,,,,,space,0.7461121000815183,26.195580899948254,None,,,,,,,,,,,,,,,,,,,,,,,,,,,,,,,,,,,,1234,001,2020_May_10_2045,macbeth,2020.1.2,60.06907940788712,
,,,,,,,,,,,,,1,16) Współczucie dla cierpiących jest najważniejszą cnotą człowieka.,None,None,,,,,,,,,,,,,,,,,,,,,,,,,,,,,,,26.195580899948254,None,26.195580899948254,None,26.195580899948254,None,,,,,,,,,,,,,,,,,,,,,,,,,,,,,,1234,001,2020_May_10_2045,macbeth,2020.1.2,60.06907940788712,
,,,,,,,,,,,,,2,"17) Jeśli ustanawia się nowe prawo, to najważniejsze jest, aby wszyscy byli traktowani sprawiedliwie.",None,None,,,,,,,,,,,,,,,,,,,,,,,,,,,,,,,,,,,,,,,,,,,,,,,,,,,,,,,,,,,,,,,,,,1234,001,2020_May_10_2045,macbeth,2020.1.2,60.06907940788712,
,,,,,,,,,,,,,3,18) Jestem dumny z historii mojego kraju.,None,None,,,,,,,,,,,,,,,,,,,,,,,,,,,,,,,,,,,,,,,,,,,,,,,,,,,,,,,,,,,,,,,,,,1234,001,2020_May_10_2045,macbeth,2020.1.2,60.06907940788712,
,,,,,,,,,,,,,4,"19) Szacunek dla władzy i autorytetów jest czymś, czego powinny nauczyć się wszystkie dzieci.",None,None,,,,,,,,,,,,,,,,,,,,,,,,,,,,,,,,,,,,,,,,,,,,,,,,,,,,,,,,,,,,,,,,,,1234,001,2020_May_10_2045,macbeth,2020.1.2,60.06907940788712,
,,,,,,,,,,,,,5,"20) Nie należy robić rzeczy obrzydliwych, nawet jeśli nikomu nie dzieje się krzywda z tego powodu.",None,None,,,,,,,,,,,,,,,,,,,,,,,,,,,,,,,,,,,,,,,,,,,,,,,,,,,,,,,,,,,,,,,,,,1234,001,2020_May_10_2045,macbeth,2020.1.2,60.06907940788712,
,,,,,,,,,,,,,6,"21) Jedną z najgorszych rzeczy, jakie może zrobić człowiek, jest skrzywdzenie bezbronnego zwierzęcia.",None,None,,,,,,,,,,,,,,,,,,,,,,,,,,,,,,,,,,,,,,,,,,,,,,,,,,,,,,,,,,,,,,,,,,1234,001,2020_May_10_2045,macbeth,2020.1.2,60.06907940788712,
,,,,,,,,,,,,,7,22) Sprawiedliwe traktowanie obywateli jest podstawą dobrego społeczeństwa.,None,None,,,,,,,,,,,,,,,,,,,,,,,,,,,,,,,,,,,,,,,,,,,,,,,,,,,,,,,,,,,,,,,,,,1234,001,2020_May_10_2045,macbeth,2020.1.2,60.06907940788712,
,,,,,,,,,,,,,8,"23) Należy być lojalnym wobec członków rodziny, nawet gdy zrobią coś złego.",None,None,,,,,,,,,,,,,,,,,,,,,,,,,,,,,,,,,,,,,,,,,,,,,,,,,,,,,,,,,,,,,,,,,,1234,001,2020_May_10_2045,macbeth,2020.1.2,60.06907940788712,
,,,,,,,,,,,,,9,24) Role kobiet i mężczyzn w społeczeństwie są i powinny być różne.,None,None,,,,,,,,,,,,,,,,,,,,,,,,,,,,,,,,,,,,,,,,,,,,,,,,,,,,,,,,,,,,,,,,,,1234,001,2020_May_10_2045,macbeth,2020.1.2,60.06907940788712,
,,,,,,,,,,,,,10,"25) Określiłbym/określiłabym pewne czyny jako złe ze względu na to, że są one niezgodne z naturą.",None,None,,,,,,,,,,,,,,,,,,,,,,,,,,,,,,,,,,,,,,,,,,,,,,,,,,,,,,,,,,,,,,,,,,1234,001,2020_May_10_2045,macbeth,2020.1.2,60.06907940788712,
,,,,,,,,,,,,,11,26) Zabicie drugiego człowieka jest - w zdecydowanej większości przypadków - czymś moralnie złym.,None,None,,,,,,,,,,,,,,,,,,,,,,,,,,,,,,,,,,,,,,,,,,,,,,,,,,,,,,,,,,,,,,,,,,1234,001,2020_May_10_2045,macbeth,2020.1.2,60.06907940788712,
,,,,,,,,,,,,,12,"27) Uważam, że jest to moralnie złe, że dzieci bogatych ludzi mają znacząco lepszy start w życiu niż dzieci biednych ludzi.",None,None,,,,,,,,,,,,,,,,,,,,,,,,,,,,,,,,,,,,,,,,,,,,,,,,,,,,,,,,,,,,,,,,,,1234,001,2020_May_10_2045,macbeth,2020.1.2,60.06907940788712,
,,,,,,,,,,,,,13,28) Solidarność ze swoją grupą jest ważniejsza niż wierność własnym poglądom.,None,None,,,,,,,,,,,,,,,,,,,,,,,,,,,,,,,,,,,,,,,,,,,,,,,,,,,,,,,,,,,,,,,,,,1234,001,2020_May_10_2045,macbeth,2020.1.2,60.06907940788712,
,,,,,,,,,,,,,14,"29) Gdybym był żołnierzem i nie zgadzałbym się z rozkazem przełożonego, to i tak bym go wykonał, ponieważ taki jest obowiązek żołnierza.",None,None,,,,,,,,,,,,,,,,,,,,,,,,,,,,,,,,,,,,,,,,,,,,,,,,,,,,,,,,,,,,,,,,,,1234,001,2020_May_10_2045,macbeth,2020.1.2,60.06907940788712,
,,,,,,,,,,,,,15,30) Czystość seksualna to ważna i cenna cnota człowieka.,None,None,,,,,,,,,,,,,,,,,,,,,,,,,,,,,,,,,,,,,,,,,,,,,,,,,,,,,,,,,,,,,,,,,,1234,001,2020_May_10_2045,macbeth,2020.1.2,60.06907940788712,
,,,,,,,,,,,,,,,,,,,,,,,,,,,,,,,,,,,,,,,,,,,,,,,,,,,,,space,0.4916073998901993,26.996476199943572,None,,,,,,,,,,,,,,,,,,,,,,,,,,1234,001,2020_May_10_2045,macbeth,2020.1.2,60.06907940788712,
,,,,,,,,,,,,,,,,,,,,,,,,,,,,,,,,,,,,,,,,,,,,,,,,,,,,,,,,,26.996476199943572,None,26.996476199943572,None,26.996476199943572,None,exprmntl,27.55903449980542,None,space,0.7987575998995453,27.55903449980542,None,,,,,,,,,,,,,1234,001,2020_May_10_2045,macbeth,2020.1.2,60.06907940788712,
,,,,,,,,,,,,,1,Prosimy zaznaczyć swoją płeć:,None,None,,,,,,,,,,,,,,,,,,,,,,,,,,,,,,,,,,,,,,,,,,,,,,,,,,,,,,,,,,,,,,,,,,1234,001,2020_May_10_2045,macbeth,2020.1.2,60.06907940788712,
,,,,,,,,,,,,,2,Prosimy zaznaczyć swój wiek:,None,None,,,,,,,,,,,,,,,,,,,,,,,,,,,,,,,,,,,,,,,,,,,,,,,,,,,,,,,,,,,,,,,,,,1234,001,2020_May_10_2045,macbeth,2020.1.2,60.06907940788712,
,,,,,,,,,,,,,3,Prosimy zaznaczyć swoje miejsce zamieszkania:,None,None,,,,,,,,,,,,,,,,,,,,,,,,,,,,,,,,,,,,,,,,,,,,,,,,,,,,,,,,,,,,,,,,,,1234,001,2020_May_10_2045,macbeth,2020.1.2,60.06907940788712,
,,,,,,,,,,,,,4,Prosimy zaznaczyć swoje wykształcenie:,None,None,,,,,,,,,,,,,,,,,,,,,,,,,,,,,,,,,,,,,,,,,,,,,,,,,,,,,,,,,,,,,,,,,,1234,001,2020_May_10_2045,macbeth,2020.1.2,60.06907940788712,
,,,,,,,,,,,,,,,,,,,,,,,,,,,,,,,,,,,,,,,,,,,,,,,,,,,,,,,,,,,,,,,,,,,,,,space,0.7216529999859631,28.38678830000572,None,,,,,,,,,1234,001,2020_May_10_2045,macbeth,2020.1.2,60.06907940788712,
,,,,,,,,,,,,,,,,,,,,,,,,,,,,,,,,,,,,,,,,,,,,,,,,,,,,,,,,,,,,,,,,,,,,,,,,,,28.38678830000572,None,29.126047499943525,None,space,0.746173899853602,29.126047499943525,None,1234,001,2020_May_10_2045,macbeth,2020.1.2,60.06907940788712,
